X(mm)	Measured heigth (nm)	Residual Heigth (nm)	Slope (micror-rad)	Residual slope (microrad)
0.00	-259.15	-65.44	-259.154	-0.0166794
1.00	-515.19	-64.03	-256.034	0.935207
2.00	-768.27	-61.83	-253.081	1.71899
3.00	-1019.14	-59.60	-250.876	1.75588
4.00	-1268.22	-57.73	-249.078	1.38527
5.00	-1515.39	-56.12	-247.165	1.12965
6.00	-1760.30	-54.42	-244.91	1.21634
7.00	-2002.59	-52.28	-242.297	1.66113
8.00	-2241.87	-49.28	-239.273	2.51661
9.00	-2478.29	-45.60	-236.42	3.2003
10.00	-2713.37	-42.75	-235.087	2.36538
11.00	-2946.93	-40.54	-233.561	1.72287
12.00	-3178.76	-38.76	-231.825	1.28986
13.00	-3408.29	-36.87	-229.534	1.41284
14.00	-3635.61	-34.92	-227.32	1.45863
15.00	-3859.93	-32.14	-224.316	2.29402
16.00	-4081.51	-28.79	-221.582	2.859
17.00	-4300.49	-25.01	-218.983	3.28929
18.00	-4516.87	-20.79	-216.376	3.72808
19.00	-4732.01	-17.50	-215.143	2.79306
20.00	-4945.38	-14.61	-213.367	2.40015
21.00	-5157.34	-12.47	-211.956	1.64254
22.00	-5367.31	-10.52	-209.975	1.45542
23.00	-5575.41	-8.86	-208.097	1.16401
24.00	-5781.93	-7.79	-206.522	0.571295
25.00	-5986.19	-6.64	-204.264	0.660281
26.00	-6188.47	-5.66	-202.278	0.478268
27.00	-6388.69	-4.79	-200.221	0.366154
28.00	-6587.13	-4.31	-198.434	-0.0146592
29.00	-6781.81	-2.24	-194.682	1.56813
30.00	-6974.22	-0.06	-192.408	1.67351
31.00	-7165.86	0.72	-191.639	0.2742
32.00	-7356.57	0.25	-190.716	-0.970913
33.00	-7545.69	-0.78	-189.113	-1.53663
34.00	-7733.09	-2.27	-187.403	-1.99474
35.00	-7918.39	-3.83	-185.3	-2.06075
36.00	-8101.15	-5.01	-182.761	-1.69007
37.00	-8281.85	-6.30	-180.706	-1.80318
38.00	-8459.88	-7.08	-178.025	-1.29079
39.00	-8635.32	-7.45	-175.44	-0.874908
40.00	-8808.41	-7.64	-173.095	-0.698322
41.00	-8978.51	-6.99	-170.097	0.131464
42.00	-9145.78	-5.69	-167.272	0.788151
43.00	-9309.85	-3.35	-164.065	1.82664
44.00	-9471.57	-0.84	-161.725	1.99812
45.00	-9630.54	2.27	-158.967	2.58721
46.00	-9786.21	6.50	-155.673	3.7128
47.00	-9940.55	9.89	-154.338	2.87888
48.00	-10092.40	13.63	-151.834	3.21517
49.00	-10241.50	17.88	-149.149	3.73116
50.00	-10388.70	21.90	-147.204	3.50774
51.00	-10534.30	25.37	-145.599	2.94433
52.00	-10677.70	28.87	-143.393	2.98212
53.00	-10819.70	31.63	-141.975	2.2311
54.00	-10960.00	33.89	-140.294	1.74319
55.00	-11098.00	36.27	-138.018	1.85127
56.00	-11233.50	38.98	-135.514	2.18706
57.00	-11367.30	41.28	-133.758	1.77365
58.00	-11499.70	42.80	-132.372	0.991834
59.00	-11630.10	44.05	-130.474	0.72142
60.00	-11758.00	45.76	-127.85	1.17691
61.00	-11883.30	47.78	-125.368	1.49029
62.00	-12006.80	49.51	-123.486	1.20308
63.00	-12128.50	50.95	-121.616	0.905166
64.00	-12248.80	51.48	-120.359	-0.00654753
65.00	-12366.60	52.40	-117.79	0.393939
66.00	-12481.70	53.90	-115.054	0.961225
67.00	-12595.10	54.85	-113.427	0.420212
68.00	-12705.60	56.52	-110.554	1.1248
69.00	-12814.60	57.61	-108.956	0.553485
70.00	-12921.90	58.20	-107.282	0.0590711
71.00	-13026.20	59.55	-104.363	0.809758
72.00	-13128.30	61.00	-102.1	0.904344
73.00	-13228.80	61.93	-100.448	0.38803
74.00	-13327.80	62.07	-99.0606	-0.393273
75.00	-13425.40	61.55	-97.563	-1.06422
76.00	-13520.90	60.98	-95.4513	-1.12096
77.00	-13614.80	59.72	-93.9597	-1.79796
78.00	-13707.60	57.47	-92.7951	-2.80186
79.00	-13798.60	54.84	-90.9935	-3.16873
80.00	-13888.20	51.44	-89.6025	-3.9463
81.00	-13975.40	48.31	-87.1671	-3.67942
82.00	-14059.60	46.01	-84.1748	-2.85559
83.00	-14140.70	44.51	-81.1918	-2.04108
84.00	-14219.80	42.98	-79.0702	-2.08804
85.00	-14296.70	41.49	-76.8555	-2.04186
86.00	-14371.40	39.97	-74.7181	-2.073
87.00	-14443.40	38.98	-72.0192	-1.54253
88.00	-14513.50	37.78	-70.0592	-1.75108
89.00	-14581.10	36.87	-67.6075	-1.46789
90.00	-14646.10	36.41	-64.983	-1.01193
91.00	-14708.70	36.14	-62.6277	-0.825134
92.00	-14768.70	36.33	-60.0074	-0.373367
93.00	-14826.60	36.47	-57.8794	-0.413811
94.00	-14881.70	37.19	-55.1394	0.157626
95.00	-14935.40	37.23	-53.6456	-0.517048
96.00	-14987.30	36.84	-51.9194	-0.959352
97.00	-15036.90	36.52	-49.6698	-0.878255
98.00	-15084.70	35.95	-47.7605	-1.13756
99.00	-15130.90	34.79	-46.1745	-1.72003
100.00	-15175.10	33.43	-44.2131	-1.92718
101.00	-15217.80	31.39	-42.7244	-2.60697
102.00	-15259.20	28.55	-41.354	-3.40504
103.00	-15298.60	25.44	-39.4541	-3.67366
104.00	-15335.90	22.30	-37.3227	-3.71084
105.00	-15370.00	20.31	-34.0068	-2.56338
106.00	-15402.00	18.08	-32.0757	-2.8008
107.00	-15432.10	15.66	-30.0985	-2.99211
108.00	-15460.00	13.35	-27.8205	-2.88261
109.00	-15485.50	11.18	-25.5066	-2.73726
110.00	-15508.70	9.08	-23.2766	-2.67572
111.00	-15529.60	7.21	-20.8761	-2.44375
112.00	-15547.70	5.95	-18.0998	-1.83599
113.00	-15562.60	5.69	-14.9328	-0.837542
114.00	-15574.90	5.94	-12.259	-0.332226
115.00	-15585.10	6.10	-10.17	-0.411779
116.00	-15592.80	6.56	-7.71275	-0.123001
117.00	-15598.40	6.97	-5.59213	-0.170892
118.00	-15602.30	6.91	-3.89805	-0.645331
119.00	-15604.50	6.32	-2.25566	-1.17146
120.00	-15604.80	5.54	-0.274274	-1.35858
121.00	-15603.60	4.03	1.1595	-2.09332
122.00	-15601.00	1.86	2.66684	-2.75449
123.00	-15595.90	-0.02	5.12647	-2.46338
124.00	-15588.70	-2.07	7.11856	-2.6398
125.00	-15580.20	-4.85	8.56211	-3.36476
126.00	-15569.40	-7.61	10.7386	-3.35678
127.00	-15556.40	-10.30	12.9905	-3.27335
128.00	-15540.70	-12.36	15.7831	-2.6493
129.00	-15522.50	-14.25	18.1175	-2.48345
130.00	-15502.50	-16.38	20.05	-2.71946
131.00	-15480.30	-18.49	22.2325	-2.70543
132.00	-15455.50	-20.26	24.7466	-2.35983
133.00	-15428.60	-22.04	26.8952	-2.37978
134.00	-15399.00	-23.23	29.6617	-1.78181
135.00	-15367.30	-24.58	31.6659	-1.94611
136.00	-15333.10	-25.60	34.1563	-1.62426
137.00	-15295.60	-25.44	37.5179	-0.431178
138.00	-15255.40	-24.75	40.2075	0.0899687
139.00	-15213.50	-24.54	41.8932	-0.392845
140.00	-15169.00	-23.87	44.5265	0.0719516
141.00	-15122.90	-23.80	46.0888	-0.534262
142.00	-15075.50	-24.56	47.4267	-1.36494
143.00	-15026.70	-26.10	48.8167	-2.14345
144.00	-14975.90	-27.89	50.7398	-2.38878
145.00	-14923.10	-29.76	52.8209	-2.47626
146.00	-14868.50	-31.98	54.6328	-2.83288
147.00	-14811.80	-34.32	56.6859	-2.94829
148.00	-14752.40	-36.11	59.4128	-2.3899
149.00	-14690.60	-37.70	61.7658	-2.20542
150.00	-14626.70	-39.33	63.9036	-2.23608
151.00	-14561.10	-41.43	65.5921	-2.71611
152.00	-14493.00	-43.18	68.1137	-2.36307
153.00	-14423.00	-45.24	69.9731	-2.67219
154.00	-14351.10	-47.56	71.8813	-2.93243
155.00	-14275.90	-48.72	75.2113	-1.771
156.00	-14198.10	-49.47	77.7827	-1.36814
157.00	-14117.90	-49.95	80.2237	-1.09565
158.00	-14035.20	-50.06	82.7629	-0.724913
159.00	-13950.00	-49.97	85.1247	-0.531586
160.00	-13861.90	-49.05	88.1283	0.30341
161.00	-13772.10	-48.62	89.8051	-0.188253
162.00	-13680.80	-48.83	91.3306	-0.831267
163.00	-13587.60	-49.33	93.2063	-1.12409
164.00	-13491.70	-49.36	95.8485	-0.650444
165.00	-13394.40	-50.06	97.3409	-1.32652
166.00	-13294.80	-50.73	99.5467	-1.28919
167.00	-13193.30	-51.63	101.474	-1.53084
168.00	-13089.80	-52.61	103.568	-1.60526
169.00	-12983.40	-52.95	106.379	-0.962572
170.00	-12874.50	-52.95	108.882	-0.627685
171.00	-12763.20	-52.70	111.296	-0.382699
172.00	-12650.00	-52.71	113.209	-0.638212
173.00	-12534.20	-52.31	115.781	-0.234426
174.00	-12416.30	-51.95	117.916	-0.26794
175.00	-12296.20	-51.51	120.157	-0.195653
176.00	-12173.10	-50.34	123.066	0.544833
177.00	-12047.60	-48.85	125.543	0.85362
178.00	-11919.20	-46.74	128.333	1.47491
179.00	-11789.50	-45.42	129.71	0.683393
180.00	-11657.50	-44.00	131.974	0.778379
181.00	-11522.80	-41.95	134.774	1.41087
182.00	-11384.90	-38.96	137.886	2.35385
183.00	-11245.10	-36.29	139.736	2.03494
184.00	-11103.40	-33.77	141.75	1.88042
185.00	-10959.60	-31.42	143.742	1.70451
186.00	-10814.10	-29.46	145.522	1.3157
187.00	-10666.40	-27.46	147.73	1.35488
188.00	-10517.20	-26.16	149.203	0.659771
189.00	-10366.80	-25.81	150.415	-0.297143
190.00	-10214.20	-25.47	152.577	-0.303057
191.00	-10060.40	-26.12	153.753	-1.29537
192.00	-9904.60	-26.84	155.849	-1.36838
193.00	-9745.63	-26.61	158.966	-0.419297
194.00	-9584.36	-26.24	161.274	-0.280011
195.00	-9420.34	-25.29	164.02	0.297076
196.00	-9254.28	-24.48	166.056	0.164362
197.00	-9085.19	-22.79	169.093	1.03345
198.00	-8914.18	-21.35	171.013	0.784335
199.00	-8740.05	-18.98	174.122	1.72502
200.00	-8563.85	-16.68	176.207	1.64181
201.00	-8385.58	-14.49	178.27	1.53609
202.00	-8205.71	-12.86	179.87	0.967681
203.00	-8022.83	-10.40	182.878	1.80687
204.00	-7837.48	-7.63	185.346	2.10635
205.00	-7649.74	-4.64	187.74	2.33174
206.00	-7460.35	-2.16	189.399	1.82243
207.00	-7268.76	0.34	191.586	1.84061
208.00	-7075.45	2.40	193.307	1.3937
209.00	-6880.09	4.34	195.36	1.27829
210.00	-6682.43	6.42	197.665	1.41477
211.00	-6483.16	7.93	199.27	0.850959
212.00	-6282.00	9.17	201.16	0.572545
213.00	-6078.56	10.52	203.438	0.682031
214.00	-5873.22	11.61	205.342	0.417618
215.00	-5664.70	13.70	208.518	1.4249
216.00	-5454.20	15.60	210.498	1.23639
217.00	-5241.67	17.37	212.531	1.10048
218.00	-5027.74	18.38	213.932	0.333564
219.00	-4811.37	19.65	216.369	0.60195
220.00	-4592.35	21.41	219.022	1.08584
221.00	-4371.33	22.99	221.014	0.909423
222.00	-4147.83	24.90	223.507	1.23401
223.00	-3921.64	27.33	226.191	1.75
224.00	-3692.44	30.59	229.192	2.58178
225.00	-3461.16	33.77	231.284	2.50597
226.00	-3227.23	37.43	233.928	2.98146
227.00	-2991.14	41.09	236.092	2.97684
228.00	-2752.56	45.06	238.576	3.29173
229.00	-2511.95	48.90	240.613	3.16091
230.00	-2269.65	52.26	242.297	2.6767
231.00	-2025.40	55.41	244.257	2.46769
232.00	-1779.20	58.33	246.194	2.23637
233.00	-1530.68	61.41	248.523	2.39666
234.00	-1280.85	63.62	249.825	1.52965
235.00	-1029.34	65.36	251.516	1.05243
236.00	-775.47	67.28	253.865	1.23362
237.00	-519.05	69.60	256.424	1.62341
238.00	-260.46	71.90	258.587	1.61789
239.00	0.01	73.93	260.475	1.33718
